"participant","sex","age","music_yrs","block","trial_n","stim","stim_idx","trial_rep_n","resp","RT","dB_ratio"
"1","m",26,4,1,1,"yl6.wav",6,1,1,2.001,0
"1","m",26,4,1,2,"yl3.wav",3,1,1,1.61,-36
"1","m",26,4,1,3,"yl5.wav",5,1,1,1.379,-12
"1","m",26,4,1,4,"yl7.wav",7,1,1,1.596,12
"1","m",26,4,1,5,"yl1.wav",1,1,0,1.879,-60
"1","m",26,4,1,6,"yl10.wav",10,1,1,1.716,48
"1","m",26,4,1,7,"yl9.wav",9,1,1,1.426,36
"1","m",26,4,1,8,"yl8.wav",8,1,1,1.476,24
"1","m",26,4,1,9,"yl11.wav",11,1,1,1.295,60
"1","m",26,4,1,10,"yl4.wav",4,1,0,1.894,-24
"1","m",26,4,1,11,"yl2.wav",2,1,0,1.593,-48
"1","m",26,4,1,12,"yl2.wav",2,2,0,1.33,-48
"1","m",26,4,1,13,"yl4.wav",4,2,0,1.263,-24
"1","m",26,4,1,14,"yl3.wav",3,2,0,1.278,-36
"1","m",26,4,1,15,"yl8.wav",8,2,1,1.895,24
"1","m",26,4,1,16,"yl6.wav",6,2,1,1.179,0
"1","m",26,4,1,17,"yl1.wav",1,2,0,1.677,-60
"1","m",26,4,1,18,"yl9.wav",9,2,1,1.63,36
"1","m",26,4,1,19,"yl11.wav",11,2,1,1.493,60
"1","m",26,4,1,20,"yl7.wav",7,2,1,1.078,12
"1","m",26,4,1,21,"yl10.wav",10,2,1,1.409,48
"1","m",26,4,1,22,"yl5.wav",5,2,0,2.494,-12
"1","m",26,4,2,1,"yl6.wav",6,1,1,1.563,0
"1","m",26,4,2,2,"yl4.wav",4,1,1,1.412,-24
"1","m",26,4,2,3,"yl2.wav",2,1,1,1.248,-48
"1","m",26,4,2,4,"yl9.wav",9,1,1,1.197,36
"1","m",26,4,2,5,"yl1.wav",1,1,0,1.848,-60
"1","m",26,4,2,6,"yl3.wav",3,1,1,1.693,-36
"1","m",26,4,2,7,"yl10.wav",10,1,1,1.112,48
"1","m",26,4,2,8,"yl11.wav",11,1,1,1.16,60
"1","m",26,4,2,9,"yl7.wav",7,1,1,1.476,12
"1","m",26,4,2,10,"yl8.wav",8,1,1,1.33,24
"1","m",26,4,2,11,"yl5.wav",5,1,0,2.063,-12
"1","m",26,4,2,12,"yl6.wav",6,2,1,1.877,0
"1","m",26,4,2,13,"yl3.wav",3,2,0,1.893,-36
"1","m",26,4,2,14,"yl4.wav",4,2,1,1.75,-24
"1","m",26,4,2,15,"yl2.wav",2,2,1,1.577,-48
"1","m",26,4,2,16,"yl7.wav",7,2,1,1.012,12
"1","m",26,4,2,17,"yl10.wav",10,2,1,1.129,48
"1","m",26,4,2,18,"yl8.wav",8,2,1,0.96,24
"1","m",26,4,2,19,"yl5.wav",5,2,0,2.377,-12
"1","m",26,4,2,20,"yl1.wav",1,2,0,1.525,-60
"1","m",26,4,2,21,"yl9.wav",9,2,1,1.575,36
"1","m",26,4,2,22,"yl11.wav",11,2,1,1.111,60
"1","m",26,4,3,1,"yl5.wav",5,1,0,1.731,-12
"1","m",26,4,3,2,"yl8.wav",8,1,1,1.493,24
"1","m",26,4,3,3,"yl4.wav",4,1,0,1.68,-24
"1","m",26,4,3,4,"yl1.wav",1,1,0,1.276,-60
"1","m",26,4,3,5,"yl10.wav",10,1,1,1.378,48
"1","m",26,4,3,6,"yl3.wav",3,1,0,1.542,-36
"1","m",26,4,3,7,"yl6.wav",6,1,1,1.543,0
"1","m",26,4,3,8,"yl11.wav",11,1,1,2.043,60
"1","m",26,4,3,9,"yl9.wav",9,1,1,1.144,36
"1","m",26,4,3,10,"yl2.wav",2,1,0,1.461,-48
"1","m",26,4,3,11,"yl7.wav",7,1,1,1.877,12
"1","m",26,4,3,12,"yl10.wav",10,2,1,1.18,48
"1","m",26,4,3,13,"yl5.wav",5,2,0,2.077,-12
"1","m",26,4,3,14,"yl11.wav",11,2,1,1.812,60
"1","m",26,4,3,15,"yl9.wav",9,2,1,1.011,36
"1","m",26,4,3,16,"yl4.wav",4,2,0,1.645,-24
"1","m",26,4,3,17,"yl3.wav",3,2,0,1.731,-36
"1","m",26,4,3,18,"yl1.wav",1,2,0,1.094,-60
"1","m",26,4,3,19,"yl7.wav",7,2,1,1.397,12
"1","m",26,4,3,20,"yl8.wav",8,2,1,1.828,24
"1","m",26,4,3,21,"yl2.wav",2,2,0,1.616,-48
"1","m",26,4,3,22,"yl6.wav",6,2,1,1.795,0
"2","f",28,7,1,1,"yl7.wav",7,1,1,1.9349,12
"2","f",28,7,1,2,"yl1.wav",1,1,0,1.6233,-60
"2","f",28,7,1,3,"yl10.wav",10,1,1,1.5097,48
"2","f",28,7,1,4,"yl3.wav",3,1,0,1.2088,-36
"2","f",28,7,1,5,"yl11.wav",11,1,1,1.3742,60
"2","f",28,7,1,6,"yl8.wav",8,1,1,0.9924,24
"2","f",28,7,1,7,"yl9.wav",9,1,1,0.8422,36
"2","f",28,7,1,8,"yl2.wav",2,1,0,1.3599,-48
"2","f",28,7,1,9,"yl6.wav",6,1,0,0.8751,0
"2","f",28,7,1,10,"yl4.wav",4,1,0,0.8123,-24
"2","f",28,7,1,11,"yl5.wav",5,1,0,0.7933,-12
"2","f",28,7,1,12,"yl7.wav",7,2,1,1.2246,12
"2","f",28,7,1,13,"yl4.wav",4,2,0,1.2453,-24
"2","f",28,7,1,14,"yl5.wav",5,2,0,0.7783,-12
"2","f",28,7,1,15,"yl6.wav",6,2,0,0.8268,0
"2","f",28,7,1,16,"yl2.wav",2,2,0,0.8099,-48
"2","f",28,7,1,17,"yl9.wav",9,2,1,1.2242,36
"2","f",28,7,1,18,"yl8.wav",8,2,1,0.8411,24
"2","f",28,7,1,19,"yl10.wav",10,2,1,0.6908,48
"2","f",28,7,1,20,"yl11.wav",11,2,1,0.9665,60
"2","f",28,7,1,21,"yl1.wav",1,2,0,1.2074,-60
"2","f",28,7,1,22,"yl3.wav",3,2,0,0.8258,-36
"2","f",28,7,2,1,"yl5.wav",5,1,0,0.9119,-12
"2","f",28,7,2,2,"yl3.wav",3,1,0,0.9095,-36
"2","f",28,7,2,3,"yl10.wav",10,1,1,1.2252,48
"2","f",28,7,2,4,"yl9.wav",9,1,1,0.8078,36
"2","f",28,7,2,5,"yl11.wav",11,1,1,0.7159,60
"2","f",28,7,2,6,"yl6.wav",6,1,0,1.3912,0
"2","f",28,7,2,7,"yl2.wav",2,1,0,1.0267,-48
"2","f",28,7,2,8,"yl8.wav",8,1,1,1.2323,24
"2","f",28,7,2,9,"yl7.wav",7,1,1,0.7931,12
"2","f",28,7,2,10,"yl4.wav",4,1,0,1.3417,-24
"2","f",28,7,2,11,"yl1.wav",1,1,0,0.827,-60
"2","f",28,7,2,12,"yl6.wav",6,2,0,0.9752,0
"2","f",28,7,2,13,"yl3.wav",3,2,0,0.8935,-36
"2","f",28,7,2,14,"yl7.wav",7,2,1,1.5252,12
"2","f",28,7,2,15,"yl2.wav",2,2,0,1.1962,-48
"2","f",28,7,2,16,"yl1.wav",1,2,0,0.7439,-60
"2","f",28,7,2,17,"yl8.wav",8,2,1,1.2137,24
"2","f",28,7,2,18,"yl9.wav",9,2,1,0.942,36
"2","f",28,7,2,19,"yl5.wav",5,2,0,2.2919,-12
"2","f",28,7,2,20,"yl10.wav",10,2,1,1.314,48
"2","f",28,7,2,21,"yl4.wav",4,2,0,1.2228,-24
"2","f",28,7,2,22,"yl11.wav",11,2,1,1.2597,60
"2","f",28,7,3,1,"yl1.wav",1,1,0,1.2708,-60
"2","f",28,7,3,2,"yl7.wav",7,1,1,1.1593,12
"2","f",28,7,3,3,"yl11.wav",11,1,1,0.6615,60
"2","f",28,7,3,4,"yl4.wav",4,1,0,1.111,-24
"2","f",28,7,3,5,"yl10.wav",10,1,1,1.2932,48
"2","f",28,7,3,6,"yl2.wav",2,1,0,1.2597,-48
"2","f",28,7,3,7,"yl6.wav",6,1,0,0.8797,0
"2","f",28,7,3,8,"yl9.wav",9,1,1,1.2629,36
"2","f",28,7,3,9,"yl3.wav",3,1,0,1.6589,-36
"2","f",28,7,3,10,"yl5.wav",5,1,0,16.4559,-12
"2","f",28,7,3,11,"yl8.wav",8,1,1,1.3172,24
"2","f",28,7,3,12,"yl9.wav",9,2,1,0.9639,36
"2","f",28,7,3,13,"yl2.wav",2,2,0,1.333,-48
"2","f",28,7,3,14,"yl8.wav",8,2,1,1.4259,24
"2","f",28,7,3,15,"yl1.wav",1,2,0,1.1413,-60
"2","f",28,7,3,16,"yl4.wav",4,2,0,0.7896,-24
"2","f",28,7,3,17,"yl7.wav",7,2,1,1.4947,12
"2","f",28,7,3,18,"yl10.wav",10,2,1,0.8429,48
"2","f",28,7,3,19,"yl11.wav",11,2,1,0.7109,60
"1101","f",21,3,1,1,"yl6.wav",6,1,0,1.618,0
"1101","f",21,3,1,2,"yl2.wav",2,1,0,1.244,-48
"1101","f",21,3,1,3,"yl1.wav",1,1,0,1.278,-60
"1101","f",21,3,1,4,"yl8.wav",8,1,1,1.907,24
"1101","f",21,3,1,5,"yl11.wav",11,1,1,1.051,60
"1101","f",21,3,1,6,"yl5.wav",5,1,0,1.549,-12
"1101","f",21,3,1,7,"yl10.wav",10,1,1,1.587,48
"1101","f",21,3,1,8,"yl4.wav",4,1,0,1.614,-24
"1101","f",21,3,1,9,"yl3.wav",3,1,0,1.105,-36
"1101","f",21,3,1,10,"yl9.wav",9,1,1,1.541,36
"1101","f",21,3,1,11,"yl7.wav",7,1,1,1.052,12
"1101","f",21,3,1,12,"yl8.wav",8,2,1,1.194,24
"1101","f",21,3,1,13,"yl2.wav",2,2,0,1.591,-48
"1101","f",21,3,1,14,"yl4.wav",4,2,0,1.081,-24
"1101","f",21,3,1,15,"yl9.wav",9,2,1,1.557,36
"1101","f",21,3,1,16,"yl7.wav",7,2,1,3.802,12
"1101","f",21,3,1,17,"yl5.wav",5,2,0,1.549,-12
"1101","f",21,3,1,18,"yl6.wav",6,2,0,2.017,0
"1101","f",21,3,1,19,"yl1.wav",1,2,0,1.126,-60
"1101","f",21,3,1,20,"yl3.wav",3,2,0,1.021,-36
"1101","f",21,3,1,21,"yl11.wav",11,2,1,1.461,60
"1101","f",21,3,1,22,"yl10.wav",10,2,1,1.357,48
"1101","f",21,3,2,1,"yl7.wav",7,1,1,1.856,12
"1101","f",21,3,2,2,"yl5.wav",5,1,0,1.403,-12
"1101","f",21,3,2,3,"yl11.wav",11,1,1,1.761,60
"1101","f",21,3,2,4,"yl3.wav",3,1,0,1.548,-36
"1101","f",21,3,2,5,"yl9.wav",9,1,1,1.217,36
"1101","f",21,3,2,6,"yl1.wav",1,1,0,1.275,-60
"1101","f",21,3,2,7,"yl2.wav",2,1,0,0.982,-48
"1101","f",21,3,2,8,"yl8.wav",8,1,1,1.819,24
"1101","f",21,3,2,9,"yl10.wav",10,1,1,1.326,48
"1101","f",21,3,2,10,"yl4.wav",4,1,0,1.351,-24
"1101","f",21,3,2,11,"yl6.wav",6,1,0,1.531,0
"1101","f",21,3,2,12,"yl1.wav",1,2,0,1.128,-60
"1101","f",21,3,2,13,"yl11.wav",11,2,1,1.515,60
"1101","f",21,3,2,14,"yl5.wav",5,2,0,1.555,-12
"1101","f",21,3,2,15,"yl4.wav",4,2,0,1.367,-24
"1101","f",21,3,2,16,"yl6.wav",6,2,1,2.106,0
"1101","f",21,3,2,17,"yl8.wav",8,2,1,1.581,24
"1101","f",21,3,2,18,"yl7.wav",7,2,1,1.714,12
"1101","f",21,3,2,19,"yl2.wav",2,2,0,1.75,-48
"1101","f",21,3,2,20,"yl3.wav",3,2,0,1.037,-36
"1101","f",21,3,2,21,"yl9.wav",9,2,1,1.973,36
"1101","f",21,3,2,22,"yl10.wav",10,2,1,1.12,48
"1101","f",21,3,3,1,"yl4.wav",4,1,0,1.73,-24
"1101","f",21,3,3,2,"yl7.wav",7,1,1,1.685,12
"1101","f",21,3,3,3,"yl2.wav",2,1,0,1.248,-48
"1101","f",21,3,3,4,"yl6.wav",6,1,0,1.879,0
"1101","f",21,3,3,5,"yl3.wav",3,1,0,1.114,-36
"1101","f",21,3,3,6,"yl5.wav",5,1,0,1.323,-12
"1101","f",21,3,3,7,"yl11.wav",11,1,1,1.809,60
"1101","f",21,3,3,8,"yl9.wav",9,1,1,1.062,36
"1101","f",21,3,3,9,"yl10.wav",10,1,1,1.017,48
"1101","f",21,3,3,10,"yl8.wav",8,1,1,1.162,24
"1101","f",21,3,3,11,"yl1.wav",1,1,0,1.507,-60
"1101","f",21,3,3,12,"yl2.wav",2,2,0,1.016,-48
"1101","f",21,3,3,13,"yl5.wav",5,2,0,1.29,-12
"1101","f",21,3,3,14,"yl4.wav",4,2,0,1.099,-24
"1101","f",21,3,3,15,"yl6.wav",6,2,0,2.264,0
"1101","f",21,3,3,16,"yl10.wav",10,2,1,1.617,48
"1101","f",21,3,3,17,"yl3.wav",3,2,0,1.646,-36
"1101","f",21,3,3,18,"yl7.wav",7,2,1,1.489,12
"1101","f",21,3,3,19,"yl8.wav",8,2,1,1.067,24
"1101","f",21,3,3,20,"yl9.wav",9,2,1,1.13,36
"1101","f",21,3,3,21,"yl1.wav",1,2,0,1.559,-60
"1101","f",21,3,3,22,"yl11.wav",11,2,1,1.721,60
"1412","m",19,1,1,1,"yl1.wav",1,1,0,4.1337,-60
"1412","m",19,1,1,2,"yl5.wav",5,1,1,1.6054,-12
"1412","m",19,1,1,3,"yl6.wav",6,1,1,1.4882,0
"1412","m",19,1,1,4,"yl4.wav",4,1,1,1.3358,-24
"1412","m",19,1,1,5,"yl7.wav",7,1,1,1.164,12
"1412","m",19,1,1,6,"yl10.wav",10,1,1,1.2411,48
"1412","m",19,1,1,7,"yl11.wav",11,1,1,1.1264,60
"1412","m",19,1,1,8,"yl8.wav",8,1,1,1.357,24
"1412","m",19,1,1,9,"yl9.wav",9,1,1,1.5646,36
"1412","m",19,1,1,10,"yl3.wav",3,1,0,1.4921,-36
"1412","m",19,1,1,11,"yl2.wav",2,1,0,1.2861,-48
"1412","m",19,1,1,12,"yl5.wav",5,2,0,1.1371,-12
"1412","m",19,1,1,13,"yl4.wav",4,2,0,1.2031,-24
"1412","m",19,1,1,14,"yl2.wav",2,2,0,1.1118,-48
"1412","m",19,1,1,15,"yl3.wav",3,2,0,1.1412,-36
"1412","m",19,1,1,16,"yl6.wav",6,2,1,1.7608,0
"1412","m",19,1,1,17,"yl7.wav",7,2,1,1.3941,12
"1412","m",19,1,1,18,"yl10.wav",10,2,1,1.7342,48
"1412","m",19,1,1,19,"yl8.wav",8,2,1,1.2845,24
"1412","m",19,1,1,20,"yl1.wav",1,2,0,1.3847,-60
"1412","m",19,1,1,21,"yl9.wav",9,2,1,1.653,36
"1412","m",19,1,1,22,"yl11.wav",11,2,1,1.4574,60
"1412","m",19,1,2,1,"yl8.wav",8,1,1,1.8976,24
"1412","m",19,1,2,2,"yl11.wav",11,1,1,1.2049,60
"1412","m",19,1,2,3,"yl1.wav",1,1,0,1.7302,-60
"1412","m",19,1,2,4,"yl7.wav",7,1,1,1.5845,12
"1412","m",19,1,2,5,"yl3.wav",3,1,0,1.725,-36
"1412","m",19,1,2,6,"yl9.wav",9,1,1,1.4032,36
"1412","m",19,1,2,7,"yl2.wav",2,1,0,1.544,-48
"1412","m",19,1,2,8,"yl5.wav",5,1,1,1.4491,-12
"1412","m",19,1,2,9,"yl6.wav",6,1,1,1.3515,0
"1412","m",19,1,2,10,"yl4.wav",4,1,1,1.1283,-24
"1412","m",19,1,2,11,"yl10.wav",10,1,1,1.5953,48
"1412","m",19,1,2,12,"yl6.wav",6,2,1,1.1627,0
"1412","m",19,1,2,13,"yl9.wav",9,2,1,1.241,36
"1412","m",19,1,2,14,"yl2.wav",2,2,0,1.2962,-48
"1412","m",19,1,2,15,"yl10.wav",10,2,1,1.6139,48
"1412","m",19,1,2,16,"yl1.wav",1,2,0,1.2679,-60
"1412","m",19,1,2,17,"yl4.wav",4,2,0,1.2553,-24
"1412","m",19,1,2,18,"yl5.wav",5,2,1,1.4718,-12
"1412","m",19,1,2,19,"yl8.wav",8,2,1,1.9181,24
"1412","m",19,1,2,20,"yl7.wav",7,2,1,1.6345,12
"1412","m",19,1,2,21,"yl3.wav",3,2,0,1.6108,-36
"1412","m",19,1,2,22,"yl11.wav",11,2,1,2.116,60
"1412","m",19,1,3,1,"yl5.wav",5,1,0,1.9446,-12
"1412","m",19,1,3,2,"yl2.wav",2,1,0,1.1859,-48
"1412","m",19,1,3,3,"yl7.wav",7,1,1,1.3346,12
"1412","m",19,1,3,4,"yl8.wav",8,1,1,1.238,24
"1412","m",19,1,3,5,"yl4.wav",4,1,0,1.2917,-24
"1412","m",19,1,3,6,"yl10.wav",10,1,1,1.481,48
"1412","m",19,1,3,7,"yl11.wav",11,1,1,1.6404,60
"1412","m",19,1,3,8,"yl1.wav",1,1,0,1.8864,-60
"1412","m",19,1,3,9,"yl6.wav",6,1,1,1.7399,0
"1412","m",19,1,3,10,"yl3.wav",3,1,0,1.485,-36
"1412","m",19,1,3,11,"yl9.wav",9,1,1,1.4195,36
"1412","m",19,1,3,12,"yl5.wav",5,2,0,1.3076,-12
"1412","m",19,1,3,13,"yl11.wav",11,2,1,1.5049,60
"1412","m",19,1,3,14,"yl1.wav",1,2,0,1.4224,-60
"1412","m",19,1,3,15,"yl10.wav",10,2,1,1.4915,48
"1412","m",19,1,3,16,"yl6.wav",6,2,1,1.7954,0
"1412","m",19,1,3,17,"yl4.wav",4,2,0,1.384,-24
"1412","m",19,1,3,18,"yl9.wav",9,2,1,1.3062,36
"1412","m",19,1,3,19,"yl8.wav",8,2,1,1.5597,24
"1412","m",19,1,3,20,"yl2.wav",2,2,0,1.4215,-48
"1412","m",19,1,3,21,"yl3.wav",3,2,0,1.4981,-36
"1412","m",19,1,3,22,"yl7.wav",7,2,1,1.4988,12
"1701","f",20,0,1,1,"yl2.wav",2,1,0,2.4239,-48
"1701","f",20,0,1,2,"yl5.wav",5,1,0,1.1137,-12
"1701","f",20,0,1,3,"yl8.wav",8,1,1,2.3658,24
"1701","f",20,0,1,4,"yl6.wav",6,1,0,2.1748,0
"1701","f",20,0,1,5,"yl1.wav",1,1,0,1.203,-60
"1701","f",20,0,1,6,"yl9.wav",9,1,1,1.8279,36
"1701","f",20,0,1,7,"yl11.wav",11,1,1,1.103,60
"1701","f",20,0,1,8,"yl10.wav",10,1,1,1.0527,48
"1701","f",20,0,1,9,"yl3.wav",3,1,0,2.4126,-36
"1701","f",20,0,1,10,"yl4.wav",4,1,0,1.1027,-24
"1701","f",20,0,1,11,"yl7.wav",7,1,1,1.7696,12
"1701","f",20,0,1,12,"yl7.wav",7,2,1,1.1731,12
"1701","f",20,0,1,13,"yl11.wav",11,2,1,1.042,60
"1701","f",20,0,1,14,"yl2.wav",2,2,0,1.8792,-48
"1701","f",20,0,1,15,"yl4.wav",4,2,0,1.1303,-24
"1701","f",20,0,1,16,"yl10.wav",10,2,1,2.0585,48
"1701","f",20,0,1,17,"yl6.wav",6,2,0,1.7695,0
"1701","f",20,0,1,18,"yl8.wav",8,2,1,2.0677,24
"1701","f",20,0,1,19,"yl1.wav",1,2,0,1.9241,-60
"1701","f",20,0,1,20,"yl5.wav",5,2,0,1.0858,-12
"1701","f",20,0,1,21,"yl3.wav",3,2,0,0.9962,-36
"1701","f",20,0,1,22,"yl9.wav",9,2,1,2.1025,36
"1701","f",20,0,2,1,"yl4.wav",4,1,0,3.0878,-24
"1701","f",20,0,2,2,"yl2.wav",2,1,0,1.1859,-48
"1701","f",20,0,2,3,"yl8.wav",8,1,1,1.9872,24
"1701","f",20,0,2,4,"yl3.wav",3,1,0,1.9386,-36
"1701","f",20,0,2,5,"yl1.wav",1,1,0,1.4594,-60
"1701","f",20,0,2,6,"yl6.wav",6,1,0,1.161,0
"1701","f",20,0,2,7,"yl9.wav",9,1,1,1.7219,36
"1701","f",20,0,2,8,"yl7.wav",7,1,1,1.7021,12
"1701","f",20,0,2,9,"yl5.wav",5,1,0,1.9534,-12
"1701","f",20,0,2,10,"yl11.wav",11,1,1,2.0007,60
"1701","f",20,0,2,11,"yl10.wav",10,1,1,1.0299,48
"1701","f",20,0,2,12,"yl9.wav",9,2,1,0.9585,36
"1701","f",20,0,2,13,"yl2.wav",2,2,0,1.9198,-48
"1701","f",20,0,2,14,"yl1.wav",1,2,0,1.0349,-60
"1701","f",20,0,2,15,"yl7.wav",7,2,1,1.992,12
"1701","f",20,0,2,16,"yl6.wav",6,2,0,2.0014,0
"1701","f",20,0,2,17,"yl8.wav",8,2,1,2.3661,24
"1701","f",20,0,2,18,"yl3.wav",3,2,0,1.9758,-36
"1701","f",20,0,2,19,"yl10.wav",10,2,1,1.5851,48
"1701","f",20,0,2,20,"yl11.wav",11,2,1,2.3367,60
"1701","f",20,0,2,21,"yl5.wav",5,2,0,1.9194,-12
"1701","f",20,0,2,22,"yl4.wav",4,2,0,1.2042,-24
"1701","f",20,0,3,1,"yl7.wav",7,1,1,2.0945,12
"1701","f",20,0,3,2,"yl2.wav",2,1,0,1.9381,-48
"1701","f",20,0,3,3,"yl4.wav",4,1,0,1.0854,-24
"1701","f",20,0,3,4,"yl8.wav",8,1,1,1.985,24
"1701","f",20,0,3,5,"yl9.wav",9,1,1,1.2703,36
"1701","f",20,0,3,6,"yl11.wav",11,1,1,1.1866,60
"1701","f",20,0,3,7,"yl5.wav",5,1,0,1.9693,-12
"1701","f",20,0,3,8,"yl1.wav",1,1,0,1.2251,-60
"1701","f",20,0,3,9,"yl10.wav",10,1,1,1.9518,48
"1701","f",20,0,3,10,"yl6.wav",6,1,0,1.8235,0
"1701","f",20,0,3,11,"yl3.wav",3,1,0,1.1532,-36
"1701","f",20,0,3,12,"yl2.wav",2,2,0,1.0811,-48
"1701","f",20,0,3,13,"yl7.wav",7,2,1,2.2848,12
"1701","f",20,0,3,14,"yl1.wav",1,2,0,1.8427,-60
"1701","f",20,0,3,15,"yl4.wav",4,2,0,1.153,-24
"1701","f",20,0,3,16,"yl8.wav",8,2,1,1.9076,24
"1701","f",20,0,3,17,"yl9.wav",9,2,1,1.1855,36
"1701","f",20,0,3,18,"yl6.wav",6,2,0,1.9189,0
"1701","f",20,0,3,19,"yl5.wav",5,2,0,1.1743,-12
"1701","f",20,0,3,20,"yl3.wav",3,2,0,1.0702,-36
"1701","f",20,0,3,21,"yl11.wav",11,2,1,1.9021,60
"1701","f",20,0,3,22,"yl10.wav",10,2,1,1.3766,48
"2201","f",28,7,1,1,"yl8.wav",8,1,0,2.6131,24
"2201","f",28,7,1,2,"yl3.wav",3,1,0,1.2183,-36
"2201","f",28,7,1,3,"yl6.wav",6,1,1,2.3593,0
"2201","f",28,7,1,4,"yl7.wav",7,1,0,2.2768,12
"2201","f",28,7,1,5,"yl10.wav",10,1,0,1.8373,48
"2201","f",28,7,1,6,"yl5.wav",5,1,0,2.0674,-12
"2201","f",28,7,1,7,"yl1.wav",1,1,0,2.226,-60
"2201","f",28,7,1,8,"yl2.wav",2,1,0,2.0605,-48
"2201","f",28,7,1,9,"yl4.wav",4,1,1,2.8753,-24
"2201","f",28,7,1,10,"yl9.wav",9,1,1,1.7561,36
"2201","f",28,7,1,11,"yl11.wav",11,1,1,2.0675,60
"2201","f",28,7,1,12,"yl7.wav",7,2,0,1.818,12
"2201","f",28,7,1,13,"yl3.wav",3,2,0,2.4611,-36
"2201","f",28,7,1,14,"yl1.wav",1,2,0,2.8493,-60
"2201","f",28,7,1,15,"yl4.wav",4,2,0,1.157,-24
"2201","f",28,7,1,16,"yl11.wav",11,2,1,2.2844,60
"2201","f",28,7,1,17,"yl6.wav",6,2,0,2.7258,0
"2201","f",28,7,1,18,"yl2.wav",2,2,0,3.1518,-48
"2201","f",28,7,1,19,"yl10.wav",10,2,1,4.3745,48
"2201","f",28,7,1,20,"yl5.wav",5,2,0,1.8575,-12
"2201","f",28,7,1,21,"yl8.wav",8,2,0,1.012,24
"2201","f",28,7,1,22,"yl9.wav",9,2,1,1.5752,36
"2201","f",28,7,2,1,"yl3.wav",3,1,0,1.6081,-36
"2201","f",28,7,2,2,"yl4.wav",4,1,0,1.8759,-24
"2201","f",28,7,2,3,"yl1.wav",1,1,0,1.5068,-60
"2201","f",28,7,2,4,"yl5.wav",5,1,0,4.8584,-12
"2201","f",28,7,2,5,"yl11.wav",11,1,0,1.9065,60
"2201","f",28,7,2,6,"yl7.wav",7,1,0,1.4916,12
"2201","f",28,7,2,7,"yl8.wav",8,1,0,1.9351,24
"2201","f",28,7,2,8,"yl10.wav",10,1,1,2.1044,48
"2201","f",28,7,2,9,"yl6.wav",6,1,0,1.4686,0
"2201","f",28,7,2,10,"yl2.wav",2,1,0,1.5788,-48
"2201","f",28,7,2,11,"yl9.wav",9,1,1,3.8081,36
"2201","f",28,7,2,12,"yl8.wav",8,2,1,1.7173,24
"2201","f",28,7,2,13,"yl1.wav",1,2,0,2.2122,-60
"2201","f",28,7,2,14,"yl4.wav",4,2,0,2.7348,-24
"2201","f",28,7,2,15,"yl3.wav",3,2,0,3.728,-36
"2201","f",28,7,2,16,"yl11.wav",11,2,1,1.9984,60
"2201","f",28,7,2,17,"yl10.wav",10,2,1,3.4751,48
"2201","f",28,7,2,18,"yl5.wav",5,2,0,2.0183,-12
"2201","f",28,7,2,19,"yl6.wav",6,2,0,4.1396,0
"2201","f",28,7,2,20,"yl7.wav",7,2,0,2.4509,12
"2201","f",28,7,2,21,"yl2.wav",2,2,0,1.6225,-48
"2201","f",28,7,2,22,"yl9.wav",9,2,0,5.6792,36
"2201","f",28,7,3,1,"yl7.wav",7,1,0,1.2518,12
"2201","f",28,7,3,2,"yl4.wav",4,1,0,1.3263,-24
"2201","f",28,7,3,3,"yl9.wav",9,1,0,1.6184,36
"2201","f",28,7,3,4,"yl1.wav",1,1,0,1.3875,-60
"2201","f",28,7,3,5,"yl3.wav",3,1,0,1.9837,-36
"2201","f",28,7,3,6,"yl2.wav",2,1,0,3.352,-48
"2201","f",28,7,3,7,"yl5.wav",5,1,0,1.779,-12
"2201","f",28,7,3,8,"yl8.wav",8,1,0,1.9342,24
"2201","f",28,7,3,9,"yl6.wav",6,1,0,2.151,0
"2201","f",28,7,3,10,"yl11.wav",11,1,1,1.6351,60
"2201","f",28,7,3,11,"yl10.wav",10,1,1,1.5122,48
"2201","f",28,7,3,12,"yl4.wav",4,2,0,1.3853,-24
"2201","f",28,7,3,13,"yl8.wav",8,2,1,1.7017,24
"2201","f",28,7,3,14,"yl5.wav",5,2,1,2.7673,-12
"2201","f",28,7,3,15,"yl3.wav",3,2,0,2.3009,-36
"2201","f",28,7,3,16,"yl9.wav",9,2,1,1.9517,36
"2201","f",28,7,3,17,"yl7.wav",7,2,1,1.5598,12
"2201","f",28,7,3,18,"yl11.wav",11,2,1,1.1451,60
"2201","f",28,7,3,19,"yl6.wav",6,2,0,1.3923,0
"2201","f",28,7,3,20,"yl1.wav",1,2,0,1.2286,-60
"2201","f",28,7,3,21,"yl10.wav",10,2,0,2.0002,48
"2201","f",28,7,3,22,"yl2.wav",2,2,0,1.9086,-48
"2802","f",20,9,1,1,"yl8.wav",8,1,1,10.407,24
"2802","f",20,9,1,2,"yl5.wav",5,1,1,10.18,-12
"2802","f",20,9,1,3,"yl6.wav",6,1,1,5.487,0
"2802","f",20,9,1,4,"yl10.wav",10,1,1,4.379,48
"2802","f",20,9,1,5,"yl3.wav",3,1,1,4.529,-36
"2802","f",20,9,1,6,"yl11.wav",11,1,1,10.418,60
"2802","f",20,9,1,7,"yl2.wav",2,1,1,1.7,-48
"2802","f",20,9,1,8,"yl9.wav",9,1,1,6.206,36
"2802","f",20,9,1,9,"yl1.wav",1,1,1,2.796,-60
"2802","f",20,9,1,10,"yl4.wav",4,1,1,2.295,-24
"2802","f",20,9,1,11,"yl7.wav",7,1,1,6.012,12
"2802","f",20,9,1,12,"yl10.wav",10,2,1,4.104,48
"2802","f",20,9,1,13,"yl7.wav",7,2,1,2.669,12
"2802","f",20,9,1,14,"yl9.wav",9,2,1,1.94,36
"2802","f",20,9,1,15,"yl3.wav",3,2,1,2.236,-36
"2802","f",20,9,1,16,"yl1.wav",1,2,1,1.868,-60
"2802","f",20,9,1,17,"yl2.wav",2,2,1,4.397,-48
"2802","f",20,9,1,18,"yl5.wav",5,2,1,3.554,-12
"2802","f",20,9,1,19,"yl11.wav",11,2,1,2.571,60
"2802","f",20,9,1,20,"yl4.wav",4,2,1,3.237,-24
"2802","f",20,9,1,21,"yl6.wav",6,2,1,3.038,0
"2802","f",20,9,1,22,"yl8.wav",8,2,1,2.845,24
"2802","f",20,9,2,1,"yl8.wav",8,1,1,3.761,24
"2802","f",20,9,2,2,"yl3.wav",3,1,1,3.622,-36
"2802","f",20,9,2,3,"yl9.wav",9,1,1,6.589,36
"2802","f",20,9,2,4,"yl6.wav",6,1,1,3.698,0
"2802","f",20,9,2,5,"yl5.wav",5,1,1,5.824,-12
"2802","f",20,9,2,6,"yl11.wav",11,1,1,1.912,60
"2802","f",20,9,2,7,"yl7.wav",7,1,1,1.88,12
"2802","f",20,9,2,8,"yl1.wav",1,1,1,3.402,-60
"2802","f",20,9,2,9,"yl4.wav",4,1,1,1.723,-24
"2802","f",20,9,2,10,"yl2.wav",2,1,1,1.212,-48
"2802","f",20,9,2,11,"yl10.wav",10,1,1,3.071,48
"2802","f",20,9,2,12,"yl9.wav",9,2,1,3.632,36
"2802","f",20,9,2,13,"yl6.wav",6,2,1,7.73,0
"2802","f",20,9,2,14,"yl11.wav",11,2,1,4.839,60
"2802","f",20,9,2,15,"yl10.wav",10,2,1,2.854,48
"2802","f",20,9,2,16,"yl3.wav",3,2,1,5.019,-36
"2802","f",20,9,2,17,"yl7.wav",7,2,1,2.853,12
"2802","f",20,9,2,18,"yl5.wav",5,2,1,3.312,-12
"2802","f",20,9,2,19,"yl1.wav",1,2,1,4.483,-60
"2802","f",20,9,2,20,"yl8.wav",8,2,1,3.146,24
"2802","f",20,9,2,21,"yl4.wav",4,2,1,4.297,-24
"2802","f",20,9,2,22,"yl2.wav",2,2,1,9.379,-48
"2802","f",20,9,3,1,"yl3.wav",3,1,1,10.255,-36
"2802","f",20,9,3,2,"yl9.wav",9,1,1,4.635,36
"2802","f",20,9,3,3,"yl7.wav",7,1,1,4.354,12
"2802","f",20,9,3,4,"yl6.wav",6,1,1,3.143,0
"2802","f",20,9,3,5,"yl8.wav",8,1,1,4.697,24
"2802","f",20,9,3,6,"yl11.wav",11,1,1,6.245,60
"2802","f",20,9,3,7,"yl4.wav",4,1,1,2.98,-24
"2802","f",20,9,3,8,"yl10.wav",10,1,1,2.745,48
"2802","f",20,9,3,9,"yl5.wav",5,1,1,2.296,-12
"2802","f",20,9,3,10,"yl2.wav",2,1,1,1.386,-48
"2802","f",20,9,3,11,"yl1.wav",1,1,1,1.22,-60
"2802","f",20,9,3,12,"yl1.wav",1,2,1,2.451,-60
"2802","f",20,9,3,13,"yl6.wav",6,2,1,8.039,0
"2802","f",20,9,3,14,"yl5.wav",5,2,1,2.798,-12
"2802","f",20,9,3,15,"yl8.wav",8,2,1,2.353,24
"2802","f",20,9,3,16,"yl3.wav",3,2,1,2.837,-36
"2802","f",20,9,3,17,"yl10.wav",10,2,1,2.211,48
"2802","f",20,9,3,18,"yl7.wav",7,2,1,1.329,12
"2802","f",20,9,3,19,"yl9.wav",9,2,1,1.096,36
"2802","f",20,9,3,20,"yl4.wav",4,2,1,1.512,-24
"2802","f",20,9,3,21,"yl11.wav",11,2,1,1.731,60
"2802","f",20,9,3,22,"yl2.wav",2,2,1,1.354,-48
